T(K)		V(bohr^3)
0.0		14702.5015
10.0		14702.5022
20.0		14702.5138
30.0		14702.5636
40.0		14702.695
50.0		14702.9593
60.0		14703.3993
70.0		14704.0386
80.0		14704.882
90.0		14705.921
100.0		14707.14
110.0		14708.5207
120.0		14710.0445
130.0		14711.6941
140.0		14713.4538
150.0		14715.3099
160.0		14717.2499
170.0		14719.2633
180.0		14721.341
190.0		14723.4752
200.0		14725.6593
210.0		14727.8881
220.0		14730.157
230.0		14732.4624
240.0		14734.801
250.0		14737.1699
260.0		14739.5667
270.0		14741.989
280.0		14744.4348
290.0		14746.9024
300.0		14749.3901
310.0		14751.8966
320.0		14754.4206
330.0		14756.961
340.0		14759.517
350.0		14762.0874
360.0		14764.6719
370.0		14767.2697
380.0		14769.8801
390.0		14772.5026
400.0		14775.1367
410.0		14777.782
420.0		14780.438
430.0		14783.1045
440.0		14785.781
450.0		14788.4673
460.0		14791.1632
470.0		14793.8683
480.0		14796.5825
490.0		14799.3056
500.0		14802.0373
510.0		14804.7776
520.0		14807.5262
530.0		14810.283
540.0		14813.048
550.0		14815.8209
560.0		14818.6017
570.0		14821.3903
580.0		14824.1866
590.0		14826.9905
600.0		14829.802
610.0		14832.621
620.0		14835.4474
630.0		14838.2812
640.0		14841.1224
650.0		14843.9708
660.0		14846.8265
670.0		14849.6894
680.0		14852.5596
690.0		14855.4369
700.0		14858.3213
710.0		14861.213
720.0		14864.1117
730.0		14867.0176
740.0		14869.9306
750.0		14872.8507
760.0		14875.7779
770.0		14878.7123
780.0		14881.6537
790.0		14884.6023
800.0		14887.558
810.0		14890.5208
820.0		14893.4907
830.0		14896.4678
840.0		14899.4521
850.0		14902.4436
860.0		14905.4422
870.0		14908.4481
880.0		14911.4612
890.0		14914.4818
900.0		14917.5095
910.0		14920.5445
920.0		14923.5868
930.0		14926.6365
940.0		14929.6936
950.0		14932.7581
960.0		14935.8301
970.0		14938.9095
980.0		14941.9964
990.0		14945.0908
1000.0		14948.1929
1010.0		14951.3025
1020.0		14954.4198
1030.0		14957.5447
1040.0		14960.6774
1050.0		14963.8178
1060.0		14966.966
1070.0		14970.122
1080.0		14973.2859
1090.0		14976.4577
1100.0		14979.6375
1110.0		14982.8252
1120.0		14986.021
1130.0		14989.2248
1140.0		14992.4367
1150.0		14995.6569
1160.0		14998.8852
1170.0		15002.1218
1180.0		15005.3667
1190.0		15008.6199
1200.0		15011.8815
1210.0		15015.1516
1220.0		15018.4301
1230.0		15021.7172
1240.0		15025.0129
1250.0		15028.3172
1260.0		15031.6303
1270.0		15034.952
1280.0		15038.2826
1290.0		15041.622
1300.0		15044.9704
1310.0		15048.3276
1320.0		15051.6939
1330.0		15055.0693
1340.0		15058.4538
1350.0		15061.8474
1360.0		15065.2504
1370.0		15068.6626
1380.0		15072.0842
1390.0		15075.5152
1400.0		15078.9556
1410.0		15082.4056
1420.0		15085.8652
1430.0		15089.3344
1440.0		15092.8134
1450.0		15096.3021
1460.0		15099.8007
1470.0		15103.3091
1480.0		15106.8276
1490.0		15110.356
1500.0		15113.8946
1510.0		15117.4433
1520.0		15121.0023
1530.0		15124.5715
1540.0		15128.1511
1550.0		15131.7412
1560.0		15135.3417
1570.0		15138.9528
1580.0		15142.5746
1590.0		15146.207
1600.0		15149.8502
1610.0		15153.5043
1620.0		15157.1693
1630.0		15160.8452
1640.0		15164.5323
1650.0		15168.2304
1660.0		15171.9398
1670.0		15175.6605
1680.0		15179.3925
1690.0		15183.136
1700.0		15186.8909
1710.0		15190.6575
1720.0		15194.4357
1730.0		15198.2256
1740.0		15202.0274
1750.0		15205.8411
1760.0		15209.6667
1770.0		15213.5044
1780.0		15217.354
1790.0		15221.2162
1800.0		15225.0906
1810.0		15228.9773
1820.0		15232.8766
1830.0		15236.7883
1840.0		15240.7127
1850.0		15244.6498
1860.0		15248.5997
1870.0		15252.5625
1880.0		15256.5383
1890.0		15260.5271
1900.0		15264.5291
1910.0		15268.5443
1920.0		15272.5728
1930.0		15276.6147
1940.0		15280.6701
1950.0		15284.7391
1960.0		15288.8218
1970.0		15292.9182
1980.0		15297.0285
1990.0		15301.1528
2000.0		15305.2911
2010.0		15309.4435
2020.0		15313.6102
2030.0		15317.7912
2040.0		15321.9866
2050.0		15326.1965
2060.0		15330.421
2070.0		15334.6602
2080.0		15338.9142
2090.0		15343.1831
2100.0		15347.4669
2110.0		15351.7659
2120.0		15356.08
2130.0		15360.4097
2140.0		15364.7545
2150.0		15369.1149
2160.0		15373.4908
2170.0		15377.8823
2180.0		15382.2897
2190.0		15386.7129
2200.0		15391.1522
2210.0		15395.6075
2220.0		15400.079
2230.0		15404.5667
2240.0		15409.0709
2250.0		15413.5915
2260.0		15418.1288
2270.0		15422.6827
2280.0		15427.2534
2290.0		15431.8411
2300.0		15436.4457
2310.0		15441.0674
2320.0		15445.7064
2330.0		15450.3626
2340.0		15455.0363
2350.0		15459.7275
2360.0		15464.4363
2370.0		15469.1629
2380.0		15473.9073
2390.0		15478.6696
2400.0		15483.4499
2410.0		15488.2484
2420.0		15493.0652
2430.0		15497.9002
2440.0		15502.7538
2450.0		15507.6259
2460.0		15512.5166
2470.0		15517.4261
2480.0		15522.3545
2490.0		15527.3018
2500.0		15532.2682
2510.0		15537.2538
2520.0		15542.2586
2530.0		15547.2828
2540.0		15552.3265
2550.0		15557.3897
2560.0		15562.4726
2570.0		15567.5753
2580.0		15572.6978
2590.0		15577.8402
2600.0		15583.0027
2610.0		15588.1854
2620.0		15593.3883
2630.0		15598.6115
2640.0		15603.8551
2650.0		15609.1192
2660.0		15614.404
2670.0		15619.7094
2680.0		15625.0356
2690.0		15630.3827
2700.0		15635.7507
2710.0		15641.1397
2720.0		15646.5499
2730.0		15651.9812
2740.0		15657.4335
2750.0		15662.9075
2760.0		15668.4029
2770.0		15673.9198
2780.0		15679.4582
2790.0		15685.0182
2800.0		15690.6
2810.0		15696.2035
2820.0		15701.8288
2830.0		15707.476
2840.0		15713.1451
2850.0		15718.8362
2860.0		15724.5494
2870.0		15730.2847
2880.0		15736.0421
2890.0		15741.8216
2900.0		15747.6236
2910.0		15753.4477
2920.0		15759.2941
2930.0		15765.1629
2940.0		15771.054
2950.0		15776.9676
2960.0		15782.9036
2970.0		15788.862
2980.0		15794.8428
2990.0		15800.8462
3000.0		15806.872
